subject_id,Block,Trial,Type,Global,Local,Targets,repCorr,Key,RT,acc,cond,hitMiss,ct
101,gbLc,0,SS,S,S,HL,102,102,682,1,,CR,1
101,gbLc,1,LA,L,A,HL,106,106,488,1,G,H,1
101,gbLc,2,OO,O,O,HL,102,102,320,1,,CR,1
101,gbLc,3,HA,H,A,HL,106,106,704,1,G,H,1
101,gbLc,4,HL,H,L,HL,106,106,575,1,GL,H,1
101,gbLc,0,HS,H,S,HL,106,106,622,1,G,H,1
101,gbLc,1,LH,L,H,HL,106,106,263,1,GL,H,1
101,gbLc,2,SS,S,S,HL,102,102,341,1,,CR,1
101,gbLc,3,SO,S,O,HL,102,102,555,1,,CR,1
101,gbLc,4,OA,O,A,HL,102,102,462,1,,CR,1
101,gbLc,5,AH,A,H,HL,106,106,991,1,L,H,1
101,gbLc,6,AL,A,L,HL,106,106,316,1,L,H,1
101,gbLc,7,SH,S,H,HL,106,106,726,1,L,H,1
101,gbLc,8,HA,H,A,HL,106,106,617,1,G,H,1
101,gbLc,9,OS,O,S,HL,102,102,656,1,,CR,1
101,gbLc,10,AO,A,O,HL,102,102,1228,1,,CR,1
101,gbLc,11,AA,A,A,HL,102,102,998,1,,CR,1
101,gbLc,12,LO,L,O,HL,106,106,391,1,G,H,1
101,gbLc,13,AS,A,S,HL,102,102,514,1,,CR,1
101,gbLc,14,OH,O,H,HL,106,106,584,1,L,H,1
101,gbLc,15,HO,H,O,HL,106,106,455,1,G,H,1
101,gbLc,16,LL,L,L,HL,106,106,287,1,GL,H,1
101,gbLc,17,HL,H,L,HL,106,106,304,1,GL,H,1
101,gbLc,18,LA,L,A,HL,106,106,315,1,G,H,1
101,gbLc,19,SL,S,L,HL,106,106,718,1,L,H,1
101,gbLc,20,SA,S,A,HL,102,102,719,1,,CR,1
101,gbLc,21,OL,O,L,HL,106,106,670,1,L,H,1
101,gbLc,22,HH,H,H,HL,106,106,392,1,GL,H,1
101,gbLc,23,OO,O,O,HL,102,102,483,1,,CR,1
101,gbLc,24,LS,L,S,HL,106,106,383,1,G,H,1
101,gbLc,25,HS,H,S,HL,106,106,339,1,G,H,1
101,gbLc,26,LO,L,O,HL,106,106,279,1,G,H,1
101,gbLc,27,OA,O,A,HL,102,102,651,1,,CR,1
101,gbLc,28,OL,O,L,HL,106,106,317,1,L,H,1
101,gbLc,29,HH,H,H,HL,106,106,265,1,GL,H,1
101,gbLc,30,SO,S,O,HL,102,102,512,1,,CR,1
101,gbLc,31,HL,H,L,HL,106,106,234,1,GL,H,1
101,gbLc,32,AL,A,L,HL,106,106,662,1,L,H,1
101,gbLc,33,LH,L,H,HL,106,106,195,1,GL,H,1
101,gbLc,34,SS,S,S,HL,102,102,504,1,,CR,1
101,gbLc,35,LS,L,S,HL,106,106,298,1,G,H,1
101,gbLc,36,OS,O,S,HL,102,102,484,1,,CR,1
101,gbLc,37,HA,H,A,HL,106,106,348,1,G,H,1
101,gbLc,38,SL,S,L,HL,106,106,457,1,L,H,1
101,gbLc,39,OH,O,H,HL,106,106,511,1,L,H,1
101,gbLc,40,AH,A,H,HL,106,106,349,1,L,H,1
101,gbLc,41,HO,H,O,HL,106,106,352,1,G,H,1
101,gbLc,42,LL,L,L,HL,106,106,159,1,GL,H,1
101,gbLc,43,OO,O,O,HL,102,102,525,1,,CR,1
101,gbLc,44,AO,A,O,HL,102,102,631,1,,CR,1
101,gbLc,45,LA,L,A,HL,106,106,149,1,G,H,1
101,gbLc,46,AA,A,A,HL,102,102,386,1,,CR,1
101,gbLc,47,SH,S,H,HL,106,106,623,1,L,H,1
101,gbLc,48,AS,A,S,HL,102,102,320,1,,CR,1
101,gbLc,49,SA,S,A,HL,102,102,281,1,,CR,1
101,glob,0,OH,O,H,HL,102,102,539,1,L,CR,1
101,glob,1,OS,O,S,HL,102,102,355,1,,CR,1
101,glob,2,AS,A,S,HL,102,102,225,1,,CR,1
101,glob,3,HS,H,S,HL,106,106,593,1,G,H,1
101,glob,4,AA,A,A,HL,102,102,225,1,,CR,1
101,glob,0,SO,S,O,HL,102,102,779,1,,CR,1
101,glob,1,LO,L,O,HL,106,106,290,1,G,H,1
101,glob,2,AO,A,O,HL,102,102,227,1,,CR,1
101,glob,3,LS,L,S,HL,106,106,238,1,G,H,1
101,glob,4,HS,H,S,HL,106,106,288,1,G,H,1
101,glob,5,OA,O,A,HL,102,102,245,1,,CR,1
101,glob,6,HO,H,O,HL,106,106,323,1,G,H,1
101,glob,7,LH,L,H,HL,106,106,230,1,GL,H,1
101,glob,8,LA,L,A,HL,106,106,229,1,G,H,1
101,glob,9,LL,L,L,HL,106,106,178,1,GL,H,1
101,glob,10,OO,O,O,HL,102,102,315,1,,CR,1
101,glob,11,SS,S,S,HL,102,102,332,1,,CR,1
101,glob,12,SA,S,A,HL,102,102,391,1,,CR,1
101,glob,13,AS,A,S,HL,102,102,513,1,,CR,1
101,glob,14,AL,A,L,HL,102,102,365,1,L,CR,1
101,glob,15,AA,A,A,HL,102,102,278,1,,CR,1
101,glob,16,HL,H,L,HL,106,106,225,1,GL,H,1
101,glob,17,SH,S,H,HL,102,102,249,1,L,CR,1
101,glob,18,HA,H,A,HL,106,106,400,1,G,H,1
101,glob,19,OH,O,H,HL,102,102,229,1,L,CR,1
101,glob,20,AH,A,H,HL,102,102,144,1,L,CR,1
101,glob,21,OL,O,L,HL,102,102,256,1,L,CR,1
101,glob,22,HH,H,H,HL,106,106,350,1,GL,H,1
101,glob,23,OS,O,S,HL,102,102,135,1,,CR,1
101,glob,24,SL,S,L,HL,102,102,428,1,L,CR,1
101,glob,25,AA,A,A,HL,102,102,215,1,,CR,1
101,glob,26,LS,L,S,HL,106,106,221,1,G,H,1
101,glob,27,SH,S,H,HL,102,102,641,1,L,CR,1
101,glob,28,LA,L,A,HL,106,102,168,0,G,M,1
101,glob,29,SA,S,A,HL,102,102,324,1,,CR,1
101,glob,30,SS,S,S,HL,102,102,258,1,,CR,1
101,glob,31,AH,A,H,HL,102,102,508,1,L,CR,1
101,glob,32,OH,O,H,HL,102,102,249,1,L,CR,1
101,glob,33,SO,S,O,HL,102,102,269,1,,CR,1
101,glob,34,HO,H,O,HL,106,106,202,1,G,H,1
101,glob,35,HS,H,S,HL,106,106,208,1,G,H,1
101,glob,36,OS,O,S,HL,102,102,295,1,,CR,1
101,glob,37,OO,O,O,HL,102,102,99,1,,CR,1
101,glob,38,HA,H,A,HL,106,106,305,1,G,H,1
101,glob,39,AO,A,O,HL,102,102,444,1,,CR,1
101,glob,40,OL,O,L,HL,102,102,385,1,L,CR,1
101,glob,41,LL,L,L,HL,106,106,323,1,GL,H,1
101,glob,42,SL,S,L,HL,102,102,293,1,L,CR,1
101,glob,43,AS,A,S,HL,102,102,212,1,,CR,1
101,glob,44,LO,L,O,HL,106,106,537,1,G,H,1
101,glob,45,LH,L,H,HL,106,106,295,1,GL,H,1
101,glob,46,HL,H,L,HL,106,106,296,1,GL,H,1
101,glob,47,HH,H,H,HL,106,106,288,1,GL,H,1
101,glob,48,AL,A,L,HL,102,102,442,1,L,CR,1
101,glob,49,OA,O,A,HL,102,102,542,1,,CR,1
101,loca,0,AH,A,H,HL,106,106,432,1,L,H,1
101,loca,1,LH,L,H,HL,106,106,647,1,GL,H,1
101,loca,2,OO,O,O,HL,102,102,498,1,,CR,1
101,loca,3,AO,A,O,HL,102,102,344,1,,CR,1
101,loca,4,SL,S,L,HL,106,106,356,1,L,H,1
101,loca,0,LH,L,H,HL,106,106,459,1,GL,H,1
101,loca,1,SH,S,H,HL,106,106,334,1,L,H,1
101,loca,2,SS,S,S,HL,102,102,304,1,,CR,1
101,loca,3,LS,L,S,HL,102,102,257,1,G,CR,1
101,loca,4,AO,A,O,HL,102,102,249,1,,CR,1
101,loca,5,OL,O,L,HL,106,106,281,1,L,H,1
101,loca,6,LA,L,A,HL,102,102,232,1,G,CR,1
101,loca,7,SO,S,O,HL,102,102,227,1,,CR,1
101,loca,8,HO,H,O,HL,102,102,246,1,G,CR,1
101,loca,9,LO,L,O,HL,102,102,94,1,G,CR,1
101,loca,10,OH,O,H,HL,106,106,684,1,L,H,1
101,loca,11,OS,O,S,HL,102,102,155,1,,CR,1
101,loca,12,SL,S,L,HL,106,106,470,1,L,H,1
101,loca,13,SA,S,A,HL,102,102,241,1,,CR,1
101,loca,14,AH,A,H,HL,106,106,450,1,L,H,1
101,loca,15,OO,O,O,HL,102,102,115,1,,CR,1
101,loca,16,HH,H,H,HL,106,106,347,1,GL,H,1
101,loca,17,HS,H,S,HL,102,102,173,1,G,CR,1
101,loca,18,AL,A,L,HL,106,106,353,1,L,H,1
101,loca,19,OA,O,A,HL,102,102,233,1,,CR,1
101,loca,20,AA,A,A,HL,102,102,231,1,,CR,1
101,loca,21,HA,H,A,HL,102,102,139,1,G,CR,1
101,loca,22,AS,A,S,HL,102,102,395,1,,CR,1
101,loca,23,LL,L,L,HL,106,106,297,1,GL,H,1
101,loca,24,HL,H,L,HL,106,106,196,1,GL,H,1
101,loca,25,AH,A,H,HL,106,106,315,1,L,H,1
101,loca,26,SO,S,O,HL,102,102,217,1,,CR,1
101,loca,27,OH,O,H,HL,106,106,278,1,L,H,1
101,loca,28,OO,O,O,HL,102,102,219,1,,CR,1
101,loca,29,LS,L,S,HL,102,102,235,1,G,CR,1
101,loca,30,SL,S,L,HL,106,106,207,1,L,H,1
101,loca,31,AA,A,A,HL,102,102,240,1,,CR,1
101,loca,32,LH,L,H,HL,106,106,230,1,GL,H,1
101,loca,33,OL,O,L,HL,106,106,294,1,L,H,1
101,loca,34,AO,A,O,HL,102,102,286,1,,CR,1
101,loca,35,HL,H,L,HL,106,106,238,1,GL,H,1
101,loca,36,HH,H,H,HL,106,106,217,1,GL,H,1
101,loca,37,AS,A,S,HL,102,102,229,1,,CR,1
101,loca,38,HA,H,A,HL,102,102,262,1,G,CR,1
101,loca,39,LL,L,L,HL,106,106,231,1,GL,H,1
101,loca,40,OS,O,S,HL,102,102,183,1,,CR,1
101,loca,41,AL,A,L,HL,106,106,332,1,L,H,1
101,loca,42,HS,H,S,HL,102,102,121,1,G,CR,1
101,loca,43,OA,O,A,HL,102,102,424,1,,CR,1
101,loca,44,SS,S,S,HL,102,102,266,1,,CR,1
101,loca,45,HO,H,O,HL,102,102,126,1,G,CR,1
101,loca,46,SH,S,H,HL,106,106,259,1,L,H,1
101,loca,47,SA,S,A,HL,102,102,127,1,,CR,1
101,loca,48,LO,L,O,HL,102,102,269,1,G,CR,1
101,loca,49,LA,L,A,HL,102,102,337,1,G,CR,1
102,gbLc,0,AL,A,L,SO,106,106,698,1,,CR,1
102,gbLc,1,HO,H,O,SO,102,102,437,1,L,H,1
102,gbLc,2,LS,L,S,SO,102,102,403,1,L,H,1
102,gbLc,3,OA,O,A,SO,102,106,164,0,G,M,1
102,gbLc,0,AL,A,L,SO,106,106,1282,1,,CR,1
102,gbLc,1,HO,H,O,SO,102,102,750,1,L,H,1
102,gbLc,2,LS,L,S,SO,102,102,802,1,L,H,1
102,gbLc,3,OA,O,A,SO,102,106,509,0,G,M,1
102,gbLc,0,AL,A,L,SO,106,106,903,1,,CR,1
102,gbLc,1,HO,H,O,SO,102,102,428,1,L,H,1
102,gbLc,2,LS,L,S,SO,102,102,697,1,L,H,1
102,gbLc,3,OA,O,A,SO,102,102,421,1,G,H,1
102,gbLc,4,HA,H,A,SO,106,106,698,1,,CR,1
102,gbLc,0,HO,H,O,SO,102,102,867,1,L,H,1
102,gbLc,1,SO,S,O,SO,102,102,669,1,GL,H,1
102,gbLc,2,SS,S,S,SO,102,102,457,1,GL,H,1
102,gbLc,3,OL,O,L,SO,102,102,574,1,G,H,1
102,gbLc,4,OH,O,H,SO,102,102,461,1,G,H,1
102,gbLc,5,SH,S,H,SO,102,102,391,1,G,H,1
102,gbLc,6,SA,S,A,SO,102,102,324,1,G,H,1
102,gbLc,7,HS,H,S,SO,102,102,260,1,L,H,1
102,gbLc,8,LO,L,O,SO,102,102,273,1,L,H,1
102,gbLc,9,HL,H,L,SO,106,106,1129,1,,CR,1
102,gbLc,10,OA,O,A,SO,102,102,351,1,G,H,1
102,gbLc,11,AA,A,A,SO,106,106,832,1,,CR,1
102,gbLc,12,AS,A,S,SO,102,106,290,0,L,M,1
102,gbLc,13,HA,H,A,SO,106,106,406,1,,CR,1
102,gbLc,14,HH,H,H,SO,106,106,281,1,,CR,1
102,gbLc,15,OS,O,S,SO,102,102,290,1,GL,H,1
102,gbLc,16,LA,L,A,SO,106,106,647,1,,CR,1
102,gbLc,17,AO,A,O,SO,102,102,540,1,L,H,1
102,gbLc,18,LS,L,S,SO,102,102,261,1,L,H,1
102,gbLc,19,LL,L,L,SO,106,106,590,1,,CR,1
102,gbLc,20,SL,S,L,SO,102,102,317,1,G,H,1
102,gbLc,21,AH,A,H,SO,106,106,496,1,,CR,1
102,gbLc,22,OO,O,O,SO,102,102,482,1,GL,H,1
102,gbLc,23,LH,L,H,SO,106,106,286,1,,CR,1
102,gbLc,24,AL,A,L,SO,106,106,366,1,,CR,1
102,gbLc,25,SA,S,A,SO,102,102,360,1,G,H,1
102,gbLc,26,OH,O,H,SO,102,102,264,1,G,H,1
102,gbLc,27,HO,H,O,SO,102,102,581,1,L,H,1
102,gbLc,28,LS,L,S,SO,102,102,295,1,L,H,1
102,gbLc,29,OL,O,L,SO,102,102,330,1,G,H,1
102,gbLc,30,AA,A,A,SO,106,106,294,1,,CR,1
102,gbLc,31,OS,O,S,SO,102,102,337,1,GL,H,1
102,gbLc,32,HH,H,H,SO,106,106,409,1,,CR,1
102,gbLc,33,AH,A,H,SO,106,106,344,1,,CR,1
102,gbLc,34,HS,H,S,SO,102,102,358,1,L,H,1
102,gbLc,35,HL,H,L,SO,106,106,471,1,,CR,1
102,gbLc,36,OA,O,A,SO,102,102,301,1,G,H,1
102,gbLc,37,AS,A,S,SO,102,102,413,1,L,H,1
102,gbLc,38,LH,L,H,SO,106,106,427,1,,CR,1
102,gbLc,39,LO,L,O,SO,102,102,283,1,L,H,1
102,gbLc,40,SH,S,H,SO,102,102,250,1,G,H,1
102,gbLc,41,OO,O,O,SO,102,102,211,1,GL,H,1
102,gbLc,42,SL,S,L,SO,102,102,261,1,G,H,1
102,gbLc,43,AO,A,O,SO,102,102,579,1,L,H,1
102,gbLc,44,SS,S,S,SO,102,102,228,1,GL,H,1
102,gbLc,45,LL,L,L,SO,106,106,364,1,,CR,1
102,gbLc,46,SO,S,O,SO,102,102,252,1,GL,H,1
102,gbLc,47,AL,A,L,SO,106,106,273,1,,CR,1
102,gbLc,48,HA,H,A,SO,106,106,493,1,,CR,1
102,gbLc,49,LA,L,A,SO,106,106,402,1,,CR,1
102,glob,0,LH,L,H,SO,106,106,756,1,,CR,1
102,glob,1,LA,L,A,SO,106,106,254,1,,CR,1
102,glob,2,AH,A,H,SO,106,106,272,1,,CR,1
102,glob,3,OO,O,O,SO,102,102,331,1,GL,H,1
102,glob,4,HL,H,L,SO,106,106,320,1,,CR,1
102,glob,0,LO,L,O,SO,106,106,1293,1,L,CR,1
102,glob,1,SA,S,A,SO,102,102,321,1,G,H,1
102,glob,2,SO,S,O,SO,102,102,255,1,GL,H,1
102,glob,3,AH,A,H,SO,106,106,331,1,,CR,1
102,glob,4,SH,S,H,SO,102,102,304,1,G,H,1
102,glob,5,HO,H,O,SO,106,106,211,1,L,CR,1
102,glob,6,OH,O,H,SO,102,102,199,1,G,H,1
102,glob,7,HS,H,S,SO,106,106,323,1,L,CR,1
102,glob,8,LA,L,A,SO,106,106,279,1,,CR,1
102,glob,9,AL,A,L,SO,106,106,141,1,,CR,1
102,glob,10,HL,H,L,SO,106,106,217,1,,CR,1
102,glob,11,SS,S,S,SO,102,102,297,1,GL,H,1
102,glob,12,AO,A,O,SO,106,106,123,1,L,CR,1
102,glob,13,AS,A,S,SO,106,106,309,1,L,CR,1
102,glob,14,SL,S,L,SO,102,102,272,1,G,H,1
102,glob,15,OO,O,O,SO,102,106,257,0,GL,M,1
102,glob,16,HH,H,H,SO,106,106,277,1,,CR,1
102,glob,17,HA,H,A,SO,106,106,505,1,,CR,1
102,glob,18,OL,O,L,SO,102,102,449,1,G,H,1
102,glob,19,OS,O,S,SO,102,102,202,1,GL,H,1
102,glob,20,LS,L,S,SO,106,106,283,1,L,CR,1
102,glob,21,LH,L,H,SO,106,106,257,1,,CR,1
102,glob,22,AA,A,A,SO,106,106,323,1,,CR,1
102,glob,23,OA,O,A,SO,102,102,277,1,G,H,1
102,glob,24,LL,L,L,SO,106,106,384,1,,CR,1
102,glob,25,AL,A,L,SO,106,106,257,1,,CR,1
102,glob,26,OH,O,H,SO,102,102,241,1,G,H,1
102,glob,27,HO,H,O,SO,106,106,277,1,L,CR,1
102,glob,28,AH,A,H,SO,106,106,249,1,,CR,1
102,glob,29,HA,H,A,SO,106,106,255,1,,CR,1
102,glob,30,AA,A,A,SO,106,106,91,1,,CR,1
102,glob,31,HH,H,H,SO,106,106,102,1,,CR,1
102,glob,32,HL,H,L,SO,106,106,113,1,,CR,1
102,glob,33,AS,A,S,SO,106,106,232,1,L,CR,1
102,glob,34,SS,S,S,SO,102,102,252,1,GL,H,1
102,glob,35,SA,S,A,SO,102,102,201,1,G,H,1
102,glob,36,LL,L,L,SO,106,106,270,1,,CR,1
102,glob,37,OS,O,S,SO,102,102,312,1,GL,H,1
102,glob,38,LO,L,O,SO,106,106,248,1,L,CR,1
102,glob,39,AO,A,O,SO,106,106,240,1,L,CR,1
102,glob,40,LH,L,H,SO,106,106,212,1,,CR,1
102,glob,41,LA,L,A,SO,106,106,173,1,,CR,1
102,glob,42,LS,L,S,SO,106,106,91,1,L,CR,1
102,glob,43,SO,S,O,SO,102,102,164,1,GL,H,1
102,glob,44,OO,O,O,SO,102,102,207,1,GL,H,1
102,glob,45,OL,O,L,SO,102,102,135,1,G,H,1
102,glob,46,SL,S,L,SO,102,102,221,1,G,H,1
102,glob,47,HS,H,S,SO,106,106,314,1,L,CR,1
102,glob,48,OA,O,A,SO,102,102,285,1,G,H,1
102,glob,49,SH,S,H,SO,102,102,224,1,G,H,1
102,loca,0,HH,H,H,SO,106,106,447,1,,CR,1
102,loca,1,HS,H,S,SO,102,102,289,1,L,H,1
102,loca,2,LO,L,O,SO,102,102,315,1,L,H,1
102,loca,3,LS,L,S,SO,102,102,349,1,L,H,1
102,loca,4,OO,O,O,SO,102,102,155,1,GL,H,1
102,loca,0,SO,S,O,SO,102,102,374,1,GL,H,1
102,loca,1,HA,H,A,SO,106,106,237,1,,CR,1
102,loca,2,SH,S,H,SO,106,106,702,1,G,CR,1
102,loca,3,SA,S,A,SO,106,106,284,1,G,CR,1
102,loca,4,SS,S,S,SO,102,102,492,1,GL,H,1
102,loca,5,AA,A,A,SO,106,106,205,1,,CR,1
102,loca,6,LA,L,A,SO,106,106,314,1,,CR,1
102,loca,7,AL,A,L,SO,106,106,246,1,,CR,1
102,loca,8,LH,L,H,SO,106,106,249,1,,CR,1
102,loca,9,OS,O,S,SO,102,102,272,1,GL,H,1
102,loca,10,OO,O,O,SO,102,102,225,1,GL,H,1
102,loca,11,AH,A,H,SO,106,106,364,1,,CR,1
102,loca,12,LL,L,L,SO,106,106,230,1,,CR,1
102,loca,13,AS,A,S,SO,102,106,189,0,L,M,1
102,loca,14,HO,H,O,SO,102,102,339,1,L,H,1
102,loca,15,OA,O,A,SO,106,106,320,1,G,CR,1
102,loca,16,SL,S,L,SO,106,106,408,1,G,CR,1
102,loca,17,OL,O,L,SO,106,106,175,1,G,CR,1
102,loca,18,HL,H,L,SO,106,106,154,1,,CR,1
102,loca,19,LS,L,S,SO,102,102,248,1,L,H,1
102,loca,20,HH,H,H,SO,106,106,382,1,,CR,1
102,loca,21,AO,A,O,SO,102,102,330,1,L,H,1
102,loca,22,OH,O,H,SO,106,106,299,1,G,CR,1
102,loca,23,HS,H,S,SO,102,102,277,1,L,H,1
102,loca,24,LO,L,O,SO,102,102,304,1,L,H,1
102,loca,25,OA,O,A,SO,106,106,261,1,G,CR,1
102,loca,26,AS,A,S,SO,102,102,342,1,L,H,1
102,loca,27,HA,H,A,SO,106,106,288,1,,CR,1
102,loca,28,OO,O,O,SO,102,102,171,1,GL,H,1
102,loca,29,HL,H,L,SO,106,106,154,1,,CR,1
102,loca,30,LO,L,O,SO,102,102,143,1,L,H,1
102,loca,31,HS,H,S,SO,102,102,212,1,L,H,1
102,loca,32,OH,O,H,SO,106,106,299,1,G,CR,1
102,loca,33,AA,A,A,SO,106,106,244,1,,CR,1
102,loca,34,LH,L,H,SO,106,106,327,1,,CR,1
102,loca,35,OS,O,S,SO,102,102,288,1,GL,H,1
102,loca,36,SH,S,H,SO,106,106,222,1,G,CR,1
102,loca,37,AO,A,O,SO,102,102,407,1,L,H,1
102,loca,38,SS,S,S,SO,102,102,288,1,GL,H,1
102,loca,39,AH,A,H,SO,106,106,235,1,,CR,1
102,loca,40,AL,A,L,SO,106,106,85,1,,CR,1
102,loca,41,SA,S,A,SO,106,106,575,1,G,CR,1
102,loca,42,SO,S,O,SO,102,102,208,1,GL,H,1
102,loca,43,HH,H,H,SO,106,106,230,1,,CR,1
102,loca,44,OL,O,L,SO,106,106,192,1,G,CR,1
102,loca,45,LA,L,A,SO,106,106,129,1,,CR,1
102,loca,46,LS,L,S,SO,102,106,164,0,L,M,1
102,loca,47,LL,L,L,SO,106,106,211,1,,CR,1
102,loca,48,HO,H,O,SO,102,102,182,1,L,H,1
102,loca,49,SL,S,L,SO,106,106,258,1,G,CR,1
103,gbLc,0,OO,O,O,HS,106,None,,0,,FA,1
103,gbLc,0,OO,O,O,HS,106,None,,0,,FA,1
103,gbLc,0,OO,O,O,HS,106,106,1010,1,,CR,1
103,gbLc,1,OA,O,A,HS,106,None,,0,,FA,1
103,gbLc,0,OO,O,O,HS,106,None,,0,,FA,1
103,gbLc,0,OO,O,O,HS,106,106,689,1,,CR,1
103,gbLc,1,OA,O,A,HS,106,106,1183,1,,CR,1
103,gbLc,2,AS,A,S,HS,102,102,1008,1,L,H,1
103,gbLc,3,SL,S,L,HS,102,106,1167,0,G,M,1
103,gbLc,0,OO,O,O,HS,106,None,,0,,FA,1
103,gbLc,0,OO,O,O,HS,106,102,974,0,,FA,1
103,gbLc,0,OO,O,O,HS,106,106,1030,1,,CR,1
103,gbLc,1,OA,O,A,HS,106,106,879,1,,CR,1
103,gbLc,2,AS,A,S,HS,102,102,933,1,L,H,1
103,gbLc,3,SL,S,L,HS,102,106,1449,0,G,M,1
103,gbLc,0,OO,O,O,HS,106,None,,0,,FA,1
103,gbLc,0,OO,O,O,HS,106,None,,0,,FA,1
103,gbLc,0,OO,O,O,HS,106,106,486,1,,CR,1
103,gbLc,1,OA,O,A,HS,106,106,1368,1,,CR,1
103,gbLc,2,AS,A,S,HS,102,102,957,1,L,H,1
103,gbLc,3,SL,S,L,HS,102,106,764,0,G,M,1
103,gbLc,0,OO,O,O,HS,106,None,,0,,FA,1
103,gbLc,0,OO,O,O,HS,106,106,1108,1,,CR,1
103,gbLc,1,OA,O,A,HS,106,106,1179,1,,CR,1
103,gbLc,2,AS,A,S,HS,102,None,,0,L,M,1
103,gbLc,0,OO,O,O,HS,106,None,,0,,FA,1
103,gbLc,0,OO,O,O,HS,106,None,,0,,FA,1
103,gbLc,0,OO,O,O,HS,106,106,510,1,,CR,1
103,gbLc,1,OA,O,A,HS,106,None,,0,,FA,1
103,gbLc,0,OO,O,O,HS,106,106,512,1,,CR,1
103,gbLc,1,OA,O,A,HS,106,106,219,1,,CR,1
103,gbLc,2,AS,A,S,HS,102,102,607,1,L,H,1
103,gbLc,3,SL,S,L,HS,102,106,1038,0,G,M,1
103,gbLc,0,OO,O,O,HS,106,None,,0,,FA,1
103,gbLc,0,OO,O,O,HS,106,102,486,0,,FA,1
103,gbLc,0,OO,O,O,HS,106,None,,0,,FA,1
103,gbLc,0,OO,O,O,HS,106,None,,0,,FA,1
103,gbLc,0,OO,O,O,HS,106,106,1028,1,,CR,1
103,gbLc,1,OA,O,A,HS,106,None,,0,,FA,1
103,gbLc,0,OO,O,O,HS,106,106,813,1,,CR,1
103,gbLc,1,OA,O,A,HS,106,106,575,1,,CR,1
103,gbLc,2,AS,A,S,HS,102,None,,0,L,M,1
103,gbLc,0,OO,O,O,HS,106,None,,0,,FA,1
103,gbLc,0,OO,O,O,HS,106,None,,0,,FA,1
103,gbLc,0,OO,O,O,HS,106,106,227,1,,CR,1
103,gbLc,1,OA,O,A,HS,106,106,224,1,,CR,1
103,gbLc,2,AS,A,S,HS,102,None,,0,L,M,1
103,gbLc,0,OO,O,O,HS,106,None,,0,,FA,1
103,gbLc,0,OO,O,O,HS,106,106,414,1,,CR,1
103,gbLc,1,OA,O,A,HS,106,106,279,1,,CR,1
103,gbLc,2,AS,A,S,HS,102,102,395,1,L,H,1
103,gbLc,3,SL,S,L,HS,102,102,1172,1,G,H,1
103,gbLc,103,SS,S,S,HS,102,102,841,1,GL,H,1
103,gbLc,0,SL,S,L,HS,102,106,922,0,G,M,1
103,gbLc,1,HA,H,A,HS,102,106,894,0,G,M,1
103,gbLc,2,LS,L,S,HS,102,102,568,1,L,H,1
103,gbLc,3,AH,A,H,HS,102,102,445,1,L,H,1
103,gbLc,103,AO,A,O,HS,106,106,250,1,,CR,1
103,gbLc,5,LO,L,O,HS,106,102,321,0,,FA,1
103,gbLc,6,OO,O,O,HS,106,106,1015,1,,CR,1
103,gbLc,7,HL,H,L,HS,102,102,792,1,G,H,1
103,gbLc,8,OA,O,A,HS,106,None,,0,,FA,1
103,gbLc,9,HO,H,O,HS,102,106,934,0,G,M,1
103,gbLc,10,HH,H,H,HS,102,102,415,1,GL,H,1
103,gbLc,11,OS,O,S,HS,102,102,435,1,L,H,1
103,gbLc,12,SS,S,S,HS,102,102,654,1,GL,H,1
103,gbLc,13,OH,O,H,HS,102,102,987,1,L,H,1
103,gbLc,1103,HS,H,S,HS,102,102,547,1,GL,H,1
103,gbLc,15,LL,L,L,HS,106,102,1054,0,,FA,1
103,gbLc,16,SH,S,H,HS,102,None,,0,GL,M,1
103,gbLc,17,SO,S,O,HS,102,106,1271,0,G,M,1
103,gbLc,18,LH,L,H,HS,102,102,360,1,L,H,1
103,gbLc,19,LA,L,A,HS,106,106,580,1,,CR,1
103,gbLc,20,AA,A,A,HS,106,106,1416,1,,CR,1
103,gbLc,21,AL,A,L,HS,106,106,539,1,,CR,1
103,gbLc,22,OL,O,L,HS,106,106,1381,1,,CR,1
103,gbLc,23,AS,A,S,HS,102,102,422,1,L,H,1
103,gbLc,2103,SA,S,A,HS,102,106,680,0,G,M,1
103,gbLc,25,SL,S,L,HS,102,106,775,0,G,M,1
103,gbLc,26,LL,L,L,HS,106,106,495,1,,CR,1
103,gbLc,27,SA,S,A,HS,102,106,701,0,G,M,1
103,gbLc,28,HH,H,H,HS,102,102,342,1,GL,H,1
103,gbLc,29,AA,A,A,HS,106,106,379,1,,CR,1
103,gbLc,30,LA,L,A,HS,106,106,558,1,,CR,1
103,gbLc,31,AS,A,S,HS,102,102,474,1,L,H,1
103,gbLc,32,LH,L,H,HS,102,106,497,0,L,M,1
103,gbLc,33,OO,O,O,HS,106,106,800,1,,CR,1
103,gbLc,3103,OL,O,L,HS,106,106,395,1,,CR,1
103,gbLc,35,AO,A,O,HS,106,106,629,1,,CR,1
103,gbLc,36,LO,L,O,HS,106,106,475,1,,CR,1
103,gbLc,37,AH,A,H,HS,102,102,430,1,L,H,1
103,gbLc,38,LS,L,S,HS,102,102,653,1,L,H,1
103,gbLc,39,SH,S,H,HS,102,102,652,1,GL,H,1
103,gbLc,40,HA,H,A,HS,102,106,683,0,G,M,1
103,gbLc,41,SS,S,S,HS,102,102,1091,1,GL,H,1
103,gbLc,42,HS,H,S,HS,102,102,506,1,GL,H,1
103,gbLc,43,HO,H,O,HS,102,106,871,0,G,M,1
103,gbLc,4103,AL,A,L,HS,106,106,740,1,,CR,1
103,gbLc,45,SO,S,O,HS,102,102,634,1,G,H,1
103,gbLc,46,HL,H,L,HS,102,106,499,0,G,M,1
103,gbLc,47,OA,O,A,HS,106,106,709,1,,CR,1
103,gbLc,48,OH,O,H,HS,102,102,492,1,L,H,1
103,gbLc,49,OS,O,S,HS,102,102,572,1,L,H,1
103,glob,0,SS,S,S,HS,102,None,,0,GL,M,1
103,glob,0,SS,S,S,HS,102,102,768,1,GL,H,1
103,glob,1,LH,L,H,HS,106,None,,0,L,FA,1
103,glob,0,SS,S,S,HS,102,102,981,1,GL,H,1
103,glob,1,LH,L,H,HS,106,None,,0,L,FA,1
103,glob,0,SS,S,S,HS,102,None,,0,GL,M,1
103,glob,0,SS,S,S,HS,102,102,649,1,GL,H,1
103,glob,1,LH,L,H,HS,106,106,1233,1,L,CR,1
103,glob,2,SO,S,O,HS,102,102,1013,1,G,H,1
103,glob,3,LA,L,A,HS,106,106,575,1,,CR,1
103,glob,103,HA,H,A,HS,102,102,590,1,G,H,1
103,glob,0,HS,H,S,HS,102,102,1292,1,GL,H,1
103,glob,1,LS,L,S,HS,106,106,474,1,L,CR,1
103,glob,2,AA,A,A,HS,106,106,535,1,,CR,1
103,glob,3,LA,L,A,HS,106,106,474,1,,CR,1
103,glob,103,OL,O,L,HS,106,106,706,1,,CR,1
103,glob,5,OS,O,S,HS,106,106,1203,1,L,CR,1
103,glob,6,HL,H,L,HS,102,102,1095,1,G,H,1
103,glob,7,HA,H,A,HS,102,106,742,0,G,M,1
103,glob,8,SL,S,L,HS,102,102,973,1,G,H,1
103,glob,9,OH,O,H,HS,106,106,610,1,L,CR,1
103,glob,10,SS,S,S,HS,102,102,662,1,GL,H,1
103,glob,11,HH,H,H,HS,102,102,638,1,GL,H,1
103,glob,12,SO,S,O,HS,102,102,604,1,G,H,1
103,glob,13,AH,A,H,HS,106,106,707,1,L,CR,1
103,glob,1103,AS,A,S,HS,106,106,1312,1,L,CR,1
103,glob,15,SH,S,H,HS,102,None,,0,GL,M,1
103,glob,16,OO,O,O,HS,106,106,855,1,,CR,1
103,glob,17,LH,L,H,HS,106,106,1276,1,L,CR,1
103,glob,18,HO,H,O,HS,102,106,1471,0,G,M,1
103,glob,19,LO,L,O,HS,106,None,,0,,FA,1
103,glob,20,LL,L,L,HS,106,102,818,0,,FA,1
103,glob,21,OA,O,A,HS,106,None,,0,,FA,1
103,glob,22,SA,S,A,HS,102,None,,0,G,M,1
103,glob,23,AO,A,O,HS,106,106,1099,1,,CR,1
103,glob,2103,AL,A,L,HS,106,106,553,1,,CR,1
103,glob,25,SO,S,O,HS,102,102,441,1,G,H,1
103,glob,26,HO,H,O,HS,102,102,297,1,G,H,1
103,glob,27,HL,H,L,HS,102,102,694,1,G,H,1
103,glob,28,LH,L,H,HS,106,106,732,1,L,CR,1
103,glob,29,LA,L,A,HS,106,106,564,1,,CR,1
103,glob,30,HH,H,H,HS,102,102,519,1,GL,H,1
103,glob,31,HS,H,S,HS,102,102,508,1,GL,H,1
103,glob,32,AO,A,O,HS,106,106,353,1,,CR,1
103,glob,33,SH,S,H,HS,102,102,458,1,GL,H,1
103,glob,3103,OA,O,A,HS,106,106,723,1,,CR,1
103,glob,35,AS,A,S,HS,106,106,875,1,L,CR,1
103,glob,36,AA,A,A,HS,106,106,472,1,,CR,1
103,glob,37,OO,O,O,HS,106,106,519,1,,CR,1
103,glob,38,AH,A,H,HS,106,106,402,1,L,CR,1
103,glob,39,SS,S,S,HS,102,102,445,1,GL,H,1
103,glob,40,OH,O,H,HS,106,106,413,1,L,CR,1
103,glob,41,SL,S,L,HS,102,102,584,1,G,H,1
103,glob,42,LO,L,O,HS,106,106,1126,1,,CR,1
103,glob,43,OS,O,S,HS,106,106,1042,1,L,CR,1
103,glob,4103,LL,L,L,HS,106,106,448,1,,CR,1
103,glob,45,AL,A,L,HS,106,106,319,1,,CR,1
103,glob,46,SA,S,A,HS,102,102,425,1,G,H,1
103,glob,47,OL,O,L,HS,106,106,354,1,,CR,1
103,glob,48,HA,H,A,HS,102,102,472,1,G,H,1
103,glob,49,LS,L,S,HS,106,106,510,1,L,CR,1
103,loca,0,HA,H,A,HS,106,None,,0,G,FA,1
103,loca,0,HA,H,A,HS,106,102,1023,0,G,FA,1
103,loca,0,HA,H,A,HS,106,106,1071,1,G,CR,1
103,loca,1,OL,O,L,HS,106,106,371,1,,CR,1
103,loca,2,LS,L,S,HS,102,102,535,1,L,H,1
103,loca,3,AL,A,L,HS,106,106,518,1,,CR,1
103,loca,103,LL,L,L,HS,106,106,271,1,,CR,1
103,loca,0,AH,A,H,HS,102,102,543,1,L,H,1
103,loca,1,OL,O,L,HS,106,106,309,1,,CR,1
103,loca,2,LH,L,H,HS,102,102,463,1,L,H,1
103,loca,3,SS,S,S,HS,102,102,538,1,GL,H,1
103,loca,103,AO,A,O,HS,106,106,363,1,,CR,1
103,loca,5,OH,O,H,HS,102,102,548,1,L,H,1
103,loca,6,HS,H,S,HS,102,102,383,1,GL,H,1
103,loca,7,LL,L,L,HS,106,102,640,0,,FA,1
103,loca,8,AS,A,S,HS,102,106,387,0,L,M,1
103,loca,9,SL,S,L,HS,106,102,786,0,G,FA,1
103,loca,10,HH,H,H,HS,102,102,439,1,GL,H,1
103,loca,11,LS,L,S,HS,102,102,350,1,L,H,1
103,loca,12,AA,A,A,HS,106,106,398,1,,CR,1
103,loca,13,SO,S,O,HS,106,None,,0,G,FA,1
103,loca,1103,OO,O,O,HS,106,106,441,1,,CR,1
103,loca,15,SA,S,A,HS,106,106,1004,1,G,CR,1
103,loca,16,LA,L,A,HS,106,106,276,1,,CR,1
103,loca,17,SH,S,H,HS,102,102,505,1,GL,H,1
103,loca,18,AL,A,L,HS,106,106,388,1,,CR,1
103,loca,19,HA,H,A,HS,106,106,567,1,G,CR,1
103,loca,20,OS,O,S,HS,102,102,306,1,L,H,1
103,loca,21,HO,H,O,HS,106,106,582,1,G,CR,1
103,loca,22,OA,O,A,HS,106,106,637,1,,CR,1
103,loca,23,HL,H,L,HS,106,106,1198,1,G,CR,1
103,loca,2103,LO,L,O,HS,106,106,983,1,,CR,1
103,loca,25,LH,L,H,HS,102,102,797,1,L,H,1
103,loca,26,OL,O,L,HS,106,106,591,1,,CR,1
103,loca,27,HH,H,H,HS,102,106,595,0,GL,M,1
103,loca,28,OA,O,A,HS,106,106,781,1,,CR,1
103,loca,29,SO,S,O,HS,106,102,611,0,G,FA,1
103,loca,30,AS,A,S,HS,102,102,739,1,L,H,1
103,loca,31,LO,L,O,HS,106,106,554,1,,CR,1
103,loca,32,SL,S,L,HS,106,106,751,1,G,CR,1
103,loca,33,OH,O,H,HS,102,102,718,1,L,H,1
103,loca,3103,HL,H,L,HS,106,106,392,1,G,CR,1
103,loca,35,SH,S,H,HS,102,None,,0,GL,M,1
103,loca,36,AH,A,H,HS,102,106,274,0,L,M,1
103,loca,37,AO,A,O,HS,106,106,1113,1,,CR,1
103,loca,38,AA,A,A,HS,106,106,377,1,,CR,1
103,loca,39,AL,A,L,HS,106,106,211,1,,CR,1
103,loca,40,SA,S,A,HS,106,106,309,1,G,CR,1
103,loca,41,HS,H,S,HS,102,102,437,1,GL,H,1
103,loca,42,HA,H,A,HS,106,106,208,1,G,CR,1
103,loca,43,OS,O,S,HS,102,102,398,1,L,H,1
103,loca,4103,LA,L,A,HS,106,106,384,1,,CR,1
103,loca,45,LS,L,S,HS,102,102,942,1,L,H,1
103,loca,46,SS,S,S,HS,102,102,617,1,GL,H,1
103,loca,47,HO,H,O,HS,106,106,538,1,G,CR,1
103,loca,48,OO,O,O,HS,106,106,530,1,,CR,1
103,loca,49,LL,L,L,HS,106,106,419,1,,CR,1
103,gbLc,0,OH,O,H,SL,102,None,,0,,FA,1
103,gbLc,0,OH,O,H,SL,102,102,824,1,,CR,1
103,gbLc,1,SS,S,S,SL,106,106,974,1,GL,H,1
103,gbLc,2,AL,A,L,SL,106,None,,0,L,M,1
103,gbLc,0,OH,O,H,SL,102,102,1147,1,,CR,1
103,gbLc,1,SS,S,S,SL,106,106,1117,1,GL,H,1
103,gbLc,2,AL,A,L,SL,106,None,,0,L,M,1
103,gbLc,0,LH,L,H,AL,106,102,1035,0,G,M,1
104,gbLc,0,SL,S,L,OA,106,106,857,1,,CR,1
104,gbLc,1,SH,S,H,OA,106,106,683,1,,CR,1
104,gbLc,2,LO,L,O,OA,102,102,195,1,L,H,1
104,gbLc,3,OO,O,O,OA,102,102,95,1,GL,H,1
104,gbLc,4,OH,O,H,OA,102,106,321,0,G,M,1
104,gbLc,0,SL,S,L,OA,106,106,265,1,,CR,1
104,gbLc,1,SH,S,H,OA,106,106,126,1,,CR,1
104,gbLc,2,LO,L,O,OA,102,102,126,1,L,H,1
104,gbLc,3,OO,O,O,OA,102,102,187,1,GL,H,1
104,gbLc,4,OH,O,H,OA,102,102,243,1,G,H,1
104,gbLc,0,SO,S,O,OA,102,102,459,1,L,H,1
104,gbLc,1,LH,L,H,OA,106,106,505,1,,CR,1
104,gbLc,2,OS,O,S,OA,102,102,404,1,G,H,1
104,gbLc,3,AL,A,L,OA,102,102,385,1,G,H,1
104,gbLc,4,LA,L,A,OA,102,102,624,1,L,H,1
104,gbLc,5,HO,H,O,OA,102,102,223,1,L,H,1
104,gbLc,6,AO,A,O,OA,102,102,233,1,GL,H,1
104,gbLc,7,SL,S,L,OA,106,106,369,1,,CR,1
104,gbLc,8,OO,O,O,OA,102,102,202,1,GL,H,1
104,gbLc,9,AS,A,S,OA,102,102,350,1,G,H,1
104,gbLc,10,AH,A,H,OA,102,102,300,1,G,H,1
104,gbLc,11,SH,S,H,OA,106,106,414,1,,CR,1
104,gbLc,12,HS,H,S,OA,106,106,464,1,,CR,1
104,gbLc,13,AA,A,A,OA,102,102,253,1,GL,H,1
104,gbLc,14,HH,H,H,OA,106,106,474,1,,CR,1
104,gbLc,15,SS,S,S,OA,106,106,437,1,,CR,1
104,gbLc,16,HL,H,L,OA,106,106,505,1,,CR,1
104,gbLc,17,OH,O,H,OA,102,102,216,1,G,H,1
104,gbLc,18,LO,L,O,OA,102,102,317,1,L,H,1
104,gbLc,19,SA,S,A,OA,102,102,342,1,L,H,1
104,gbLc,20,OL,O,L,OA,102,102,305,1,G,H,1
104,gbLc,21,LS,L,S,OA,106,106,320,1,,CR,1
104,gbLc,22,HA,H,A,OA,102,102,605,1,L,H,1
104,gbLc,23,LL,L,L,OA,106,106,387,1,,CR,1
104,gbLc,24,OA,O,A,OA,102,102,256,1,GL,H,1
104,gbLc,25,LL,L,L,OA,106,106,368,1,,CR,1
104,gbLc,26,LS,L,S,OA,106,106,507,1,,CR,1
104,gbLc,27,LH,L,H,OA,106,106,415,1,,CR,1
104,gbLc,28,OL,O,L,OA,102,102,260,1,G,H,1
104,gbLc,29,HO,H,O,OA,102,102,332,1,L,H,1
104,gbLc,30,AH,A,H,OA,102,102,297,1,G,H,1
104,gbLc,31,SH,S,H,OA,106,106,483,1,,CR,1
104,gbLc,32,LA,L,A,OA,102,102,467,1,L,H,1
104,gbLc,33,OS,O,S,OA,102,102,251,1,G,H,1
104,gbLc,34,SA,S,A,OA,102,102,365,1,L,H,1
104,gbLc,35,AS,A,S,OA,102,102,256,1,G,H,1
104,gbLc,36,OO,O,O,OA,102,102,147,1,GL,H,1
104,gbLc,37,AL,A,L,OA,102,102,486,1,G,H,1
104,gbLc,38,AA,A,A,OA,102,102,208,1,GL,H,1
104,gbLc,39,AO,A,O,OA,102,102,230,1,GL,H,1
104,gbLc,40,OH,O,H,OA,102,102,362,1,G,H,1
104,gbLc,41,SO,S,O,OA,102,102,279,1,L,H,1
104,gbLc,42,HL,H,L,OA,106,106,453,1,,CR,1
104,gbLc,43,HA,H,A,OA,102,102,329,1,L,H,1
104,gbLc,44,SS,S,S,OA,106,106,497,1,,CR,1
104,gbLc,45,OA,O,A,OA,102,102,190,1,GL,H,1
104,gbLc,46,SL,S,L,OA,106,106,405,1,,CR,1
104,gbLc,47,LO,L,O,OA,102,102,255,1,L,H,1
104,gbLc,48,HS,H,S,OA,106,106,372,1,,CR,1
104,gbLc,49,HH,H,H,OA,106,106,434,1,,CR,1
104,glob,0,SL,S,L,OA,106,106,316,1,,CR,1
104,glob,1,SS,S,S,OA,106,106,180,1,,CR,1
104,glob,2,OL,O,L,OA,102,102,129,1,G,H,1
104,glob,3,LL,L,L,OA,106,106,236,1,,CR,1
104,glob,4,AO,A,O,OA,102,102,118,1,GL,H,1
104,glob,0,OS,O,S,OA,102,102,89,1,G,H,1
104,glob,1,SH,S,H,OA,106,106,117,1,,CR,1
104,glob,2,OA,O,A,OA,102,102,88,1,GL,H,1
104,glob,3,HO,H,O,OA,106,106,158,1,L,CR,1
104,glob,4,AA,A,A,OA,102,102,38,1,GL,H,1
104,glob,5,LS,L,S,OA,106,106,187,1,,CR,1
104,glob,6,LH,L,H,OA,106,106,65,1,,CR,1
104,glob,7,OO,O,O,OA,102,102,95,1,GL,H,1
104,glob,8,OH,O,H,OA,102,102,201,1,G,H,1
104,glob,9,LA,L,A,OA,106,106,180,1,L,CR,1
104,glob,10,HA,H,A,OA,106,106,298,1,L,CR,1
104,glob,11,SO,S,O,OA,106,106,243,1,L,CR,1
104,glob,12,SL,S,L,OA,106,106,159,1,,CR,1
104,glob,13,HL,H,L,OA,106,106,346,1,,CR,1
104,glob,14,SS,S,S,OA,106,106,198,1,,CR,1
104,glob,15,LO,L,O,OA,106,106,196,1,L,CR,1
104,glob,16,OL,O,L,OA,102,102,87,1,G,H,1
104,glob,17,HS,H,S,OA,106,106,169,1,,CR,1
104,glob,18,AH,A,H,OA,102,102,99,1,G,H,1
104,glob,19,HH,H,H,OA,106,106,120,1,,CR,1
104,glob,20,AO,A,O,OA,102,102,108,1,GL,H,1
104,glob,21,AS,A,S,OA,102,102,304,1,G,H,1
104,glob,22,AL,A,L,OA,102,102,173,1,G,H,1
104,glob,23,LL,L,L,OA,106,106,172,1,,CR,1
104,glob,24,SA,S,A,OA,106,106,250,1,L,CR,1
104,glob,25,OO,O,O,OA,102,102,129,1,GL,H,1
104,glob,26,LS,L,S,OA,106,106,116,1,,CR,1
104,glob,27,HS,H,S,OA,106,106,172,1,,CR,1
104,glob,28,OA,O,A,OA,102,102,163,1,GL,H,1
104,glob,29,OS,O,S,OA,102,102,162,1,G,H,1
104,glob,30,HO,H,O,OA,106,106,281,1,L,CR,1
104,glob,31,LL,L,L,OA,106,106,189,1,,CR,1
104,glob,32,AA,A,A,OA,102,102,194,1,GL,H,1
104,glob,33,HH,H,H,OA,106,106,154,1,,CR,1
104,glob,34,AH,A,H,OA,102,102,152,1,G,H,1
104,glob,35,SO,S,O,OA,106,106,222,1,L,CR,1
104,glob,36,HL,H,L,OA,106,106,272,1,,CR,1
104,glob,37,SS,S,S,OA,106,106,288,1,,CR,1
104,glob,38,SL,S,L,OA,106,106,198,1,,CR,1
104,glob,39,SH,S,H,OA,106,106,158,1,,CR,1
104,glob,40,OL,O,L,OA,102,102,154,1,G,H,1
104,glob,41,LH,L,H,OA,106,106,139,1,,CR,1
104,glob,42,HA,H,A,OA,106,106,368,1,L,CR,1
104,glob,43,LO,L,O,OA,106,106,146,1,L,CR,1
104,glob,44,AS,A,S,OA,102,102,97,1,G,H,1
104,glob,45,OH,O,H,OA,102,102,156,1,G,H,1
104,glob,46,LA,L,A,OA,106,106,129,1,L,CR,1
104,glob,47,SA,S,A,OA,106,106,192,1,L,CR,1
104,glob,48,AO,A,O,OA,102,102,86,1,GL,H,1
104,glob,49,AL,A,L,OA,102,102,123,1,G,H,1
104,loca,0,AH,A,H,OA,106,106,446,1,G,CR,1
104,loca,1,SA,S,A,OA,102,102,244,1,L,H,1
104,loca,2,SS,S,S,OA,106,106,166,1,,CR,1
104,loca,3,HL,H,L,OA,106,106,228,1,,CR,1
104,loca,4,AL,A,L,OA,106,106,153,1,G,CR,1
104,loca,0,SH,S,H,OA,106,106,236,1,,CR,1
104,loca,1,OL,O,L,OA,106,106,279,1,G,CR,1
104,loca,2,OA,O,A,OA,102,102,206,1,GL,H,1
104,loca,3,OH,O,H,OA,106,106,196,1,G,CR,1
104,loca,4,AS,A,S,OA,106,106,232,1,G,CR,1
104,loca,5,LH,L,H,OA,106,106,345,1,,CR,1
104,loca,6,HS,H,S,OA,106,106,186,1,,CR,1
104,loca,7,SS,S,S,OA,106,106,166,1,,CR,1
104,loca,8,LL,L,L,OA,106,106,236,1,,CR,1
104,loca,9,HL,H,L,OA,106,106,163,1,,CR,1
104,loca,10,OS,O,S,OA,106,106,369,1,G,CR,1
104,loca,11,HH,H,H,OA,106,106,184,1,,CR,1
104,loca,12,HO,H,O,OA,102,102,155,1,L,H,1
104,loca,13,SL,S,L,OA,106,106,170,1,,CR,1
104,loca,14,HA,H,A,OA,102,102,106,1,L,H,1
104,loca,15,LO,L,O,OA,102,102,109,1,L,H,1
104,loca,16,AH,A,H,OA,106,106,180,1,G,CR,1
104,loca,17,SO,S,O,OA,102,102,215,1,L,H,1
104,loca,18,AA,A,A,OA,102,102,111,1,GL,H,1
104,loca,19,AO,A,O,OA,102,102,121,1,GL,H,1
104,loca,20,LA,L,A,OA,102,102,162,1,L,H,1
104,loca,21,SA,S,A,OA,102,102,197,1,L,H,1
104,loca,22,AL,A,L,OA,106,106,280,1,G,CR,1
104,loca,23,LS,L,S,OA,106,106,230,1,,CR,1
104,loca,24,OO,O,O,OA,102,102,191,1,GL,H,1
104,loca,25,SS,S,S,OA,106,106,190,1,,CR,1
104,loca,26,AH,A,H,OA,106,106,166,1,G,CR,1
104,loca,27,SL,S,L,OA,106,106,151,1,,CR,1
104,loca,28,SH,S,H,OA,106,106,163,1,,CR,1
104,loca,29,SA,S,A,OA,102,102,102,1,L,H,1
104,loca,30,HL,H,L,OA,106,106,149,1,,CR,1
104,loca,31,OA,O,A,OA,102,102,86,1,GL,H,1
104,loca,32,HH,H,H,OA,106,106,151,1,,CR,1
104,loca,33,AL,A,L,OA,106,106,178,1,G,CR,1
104,loca,34,LH,L,H,OA,106,106,180,1,,CR,1
104,loca,35,LA,L,A,OA,102,102,203,1,L,H,1
104,loca,36,HA,H,A,OA,102,102,237,1,L,H,1
104,loca,37,AS,A,S,OA,106,106,218,1,G,CR,1
104,loca,38,LO,L,O,OA,102,102,246,1,L,H,1
104,loca,39,OO,O,O,OA,102,102,120,1,GL,H,1
104,loca,40,OH,O,H,OA,106,106,242,1,G,CR,1
104,loca,41,HO,H,O,OA,102,102,144,1,L,H,1
104,loca,42,LL,L,L,OA,106,106,146,1,,CR,1
104,loca,43,SO,S,O,OA,102,102,222,1,L,H,1
104,loca,44,HS,H,S,OA,106,106,183,1,,CR,1
104,loca,45,OS,O,S,OA,106,106,178,1,G,CR,1
104,loca,46,OL,O,L,OA,106,106,179,1,G,CR,1
104,loca,47,AA,A,A,OA,102,102,181,1,GL,H,1
104,loca,48,AO,A,O,OA,102,102,115,1,GL,H,1
104,loca,49,LS,L,S,OA,106,106,148,1,,CR,1
