subject_id,Block,Trial,Type,Color,Text,Letter,Key,RT
101,0,0,rect,y,NA,107,107,792
101,0,1,rect,b,NA,102,102,567
101,0,2,rect,g,NA,106,106,686
101,0,3,rect,r,NA,100,100,689
101,0,4,rect,g,NA,106,106,758
101,0,5,rect,b,NA,102,102,530
101,0,6,rect,r,NA,100,100,493
101,0,7,rect,y,NA,107,107,789
101,0,8,rect,r,NA,100,100,684
101,0,9,rect,y,NA,107,107,590
101,0,10,rect,b,NA,102,102,715
101,0,11,rect,g,NA,106,106,754
101,0,12,rect,b,NA,102,102,623
101,0,13,rect,g,NA,106,106,658
101,0,14,rect,y,NA,107,107,400
101,0,15,rect,r,NA,100,100,433
101,0,16,rect,g,NA,106,106,601
101,0,17,rect,r,NA,100,100,615
101,0,18,rect,y,NA,107,107,789
101,0,19,rect,b,NA,102,102,454
101,0,20,rect,g,NA,106,106,586
101,0,21,rect,y,NA,107,107,436
101,0,22,rect,b,NA,102,102,527
101,0,23,rect,r,NA,100,100,706
101,0,24,rect,g,NA,106,106,435
101,0,25,rect,b,NA,102,102,453
101,0,26,rect,y,NA,107,107,468
101,0,27,rect,r,NA,100,100,408
101,0,28,rect,b,NA,102,102,401
101,0,29,rect,y,NA,107,107,649
101,0,30,rect,g,NA,106,106,535
101,0,31,rect,r,NA,100,100,515
101,0,32,rect,r,NA,100,100,603
101,0,33,rect,g,NA,106,106,765
101,0,34,rect,y,NA,107,107,674
101,0,35,rect,b,NA,102,102,561
101,0,36,rect,y,NA,107,107,447
101,0,37,rect,r,NA,100,100,663
101,0,38,rect,g,NA,106,106,758
101,0,39,rect,b,NA,102,102,446
101,1,0,bw,NA,g,106,106,694
101,1,1,bw,NA,r,100,100,533
101,1,2,bw,NA,b,102,102,547
101,1,3,bw,NA,y,107,107,774
101,1,4,bw,NA,b,102,102,695
101,1,5,bw,NA,r,100,100,628
101,1,6,bw,NA,y,107,107,659
101,1,7,bw,NA,g,106,106,543
101,1,8,bw,NA,g,106,106,871
101,1,9,bw,NA,y,107,107,730
101,1,10,bw,NA,b,102,102,590
101,1,11,bw,NA,r,100,100,488
101,1,12,bw,NA,g,106,106,898
101,1,13,bw,NA,b,102,102,664
101,1,14,bw,NA,r,100,100,626
101,1,15,bw,NA,y,107,107,819
101,1,16,bw,NA,r,100,100,885
101,1,17,bw,NA,g,106,106,901
101,1,18,bw,NA,y,107,107,749
101,1,19,bw,NA,b,102,102,603
101,1,20,bw,NA,y,107,107,887
101,1,21,bw,NA,g,106,106,598
101,1,22,bw,NA,r,100,100,695
101,1,23,bw,NA,b,102,102,495
101,1,24,bw,NA,y,107,107,731
101,1,25,bw,NA,r,100,100,639
101,1,26,bw,NA,g,106,106,896
101,1,27,bw,NA,b,102,102,656
101,1,28,bw,NA,r,100,100,637
101,1,29,bw,NA,y,107,106,884
101,1,30,bw,NA,g,106,106,466
101,1,31,bw,NA,b,102,102,665
101,1,32,bw,NA,g,106,106,852
101,1,33,bw,NA,y,107,107,383
101,1,34,bw,NA,r,100,100,683
101,1,35,bw,NA,b,102,102,647
101,1,36,bw,NA,r,100,100,774
101,1,37,bw,NA,y,107,107,935
101,1,38,bw,NA,g,106,106,676
101,1,39,bw,NA,b,102,102,605
101,2,0,incong,r,g,100,100,516
101,2,1,incong,g,y,106,107,543
101,2,2,neut,y,n,107,107,827
101,2,3,neut,g,p,106,106,526
101,2,4,cong,b,b,102,102,811
101,2,5,incong,b,r,102,102,1046
101,2,6,neut,y,m,107,107,715
101,2,7,cong,r,r,100,100,1165
101,2,8,neut,r,n,100,100,749
101,2,9,incong,y,r,107,107,779
101,2,10,incong,b,g,102,102,1316
101,2,11,neut,b,m,102,102,582
101,2,12,incong,r,b,100,100,854
101,2,13,neut,b,n,102,102,867
101,2,14,neut,b,t,102,102,647
101,2,15,incong,b,y,102,102,928
101,2,16,incong,y,g,107,107,827
101,2,17,incong,g,b,106,106,743
101,2,18,neut,g,t,106,106,761
101,2,19,cong,y,y,107,107,551
101,2,20,neut,r,p,100,100,749
101,2,21,neut,b,p,102,102,597
101,2,22,neut,y,t,107,107,893
101,2,23,incong,r,y,100,100,745
101,2,24,incong,g,r,106,106,828
101,2,25,neut,g,n,106,106,657
101,2,26,neut,g,m,106,106,619
101,2,27,cong,g,g,106,106,530
101,2,28,neut,r,m,100,100,776
101,2,29,neut,r,t,100,100,430
101,2,30,neut,y,p,107,107,912
101,2,31,incong,y,b,107,107,512
101,2,32,neut,r,m,100,100,711
101,2,33,incong,r,y,100,100,681
101,2,34,cong,r,r,100,100,663
101,2,35,incong,g,r,106,106,1047
101,2,36,neut,b,t,102,102,741
101,2,37,neut,y,n,107,107,745
101,2,38,neut,r,t,100,100,628
101,2,39,neut,b,n,102,102,1215
101,2,40,neut,g,t,106,106,1139
101,2,41,neut,b,m,102,102,984
101,2,42,neut,r,n,100,100,693
101,2,43,neut,y,t,107,107,1008
101,2,44,incong,g,b,106,106,1462
101,2,45,incong,b,y,102,102,496
101,2,46,incong,r,b,100,100,599
101,2,47,cong,b,b,102,102,635
101,2,48,cong,y,y,107,107,870
101,2,49,neut,b,p,102,102,755
101,2,50,neut,g,m,106,106,931
101,2,51,neut,r,p,100,100,647
101,2,52,neut,g,n,106,106,1408
101,2,53,incong,b,g,102,102,687
101,2,54,incong,y,b,107,107,931
101,2,55,incong,g,y,106,106,732
101,2,56,cong,g,g,106,106,701
101,2,57,incong,b,r,102,102,771
101,2,58,neut,g,p,106,106,1071
101,2,59,incong,y,r,107,None,None
101,2,60,incong,y,g,107,107,1080
101,2,61,incong,r,g,100,100,667
101,2,62,neut,y,m,107,107,749
101,2,63,neut,y,p,107,107,503
101,3,0,incong,g,r,106,106,1064
101,3,1,incong,y,g,107,107,701
101,3,2,incong,r,b,100,100,633
101,3,3,neut,r,t,100,100,507
101,3,4,neut,r,n,100,100,489
101,3,5,incong,r,g,100,100,492
101,3,6,cong,r,r,100,100,447
101,3,7,neut,b,p,102,102,656
101,3,8,cong,y,y,107,107,545
101,3,9,cong,b,b,102,102,541
101,3,10,neut,b,m,102,102,528
101,3,11,incong,b,r,102,102,467
101,3,12,cong,g,g,106,106,754
101,3,13,neut,g,m,106,106,822
101,3,14,incong,g,b,106,106,586
101,3,15,neut,r,p,100,100,695
101,3,16,neut,y,t,107,107,801
101,3,17,neut,g,n,106,106,596
101,3,18,incong,b,y,102,102,589
101,3,19,incong,y,r,107,107,737
101,3,20,neut,b,n,102,102,541
101,3,21,neut,y,p,107,107,578
101,3,22,neut,g,t,106,106,568
101,3,23,neut,g,p,106,106,528
101,3,24,incong,r,y,100,100,547
101,3,25,neut,b,t,102,102,599
101,3,26,incong,y,b,107,107,651
101,3,27,neut,y,m,107,107,551
101,3,28,neut,r,m,100,100,606
101,3,29,neut,y,n,107,107,755
101,3,30,incong,g,y,106,106,751
101,3,31,incong,b,g,102,102,671
101,3,32,incong,r,b,100,100,645
101,3,33,incong,g,b,106,106,706
101,3,34,neut,r,m,100,100,555
101,3,35,cong,r,r,100,100,557
101,3,36,incong,r,y,100,100,415
101,3,37,incong,g,r,106,106,633
101,3,38,neut,y,p,107,107,576
101,3,39,neut,g,p,106,106,675
101,3,40,neut,r,p,100,100,676
101,3,41,neut,y,m,107,107,721
101,3,42,incong,y,g,107,107,708
101,3,43,neut,y,n,107,107,677
101,3,44,cong,g,g,106,106,611
101,3,45,neut,b,p,102,102,742
101,3,46,incong,y,r,107,107,761
101,3,47,incong,g,y,106,106,643
101,3,48,cong,y,y,107,107,619
101,3,49,neut,r,t,100,100,686
101,3,50,neut,y,t,107,107,643
101,3,51,cong,b,b,102,102,656
101,3,52,neut,g,t,106,106,700
101,3,53,neut,b,t,102,102,531
101,3,54,incong,r,g,100,100,939
101,3,55,neut,g,m,106,106,724
101,3,56,neut,b,m,102,102,583
101,3,57,incong,y,b,107,107,834
101,3,58,incong,b,r,102,102,1079
101,3,59,incong,b,g,102,102,465
101,3,60,neut,b,n,102,102,449
101,3,61,neut,r,n,100,100,707
101,3,62,incong,b,y,102,102,1093
101,3,63,neut,g,n,106,106,671
102,0,0,rect,r,NA,102,102,684
102,0,1,rect,b,NA,107,107,452
102,0,2,rect,y,NA,100,100,701
102,0,3,rect,g,NA,106,106,595
102,0,4,rect,y,NA,100,100,582
102,0,5,rect,g,NA,106,106,657
102,0,6,rect,r,NA,102,102,588
102,0,7,rect,b,NA,107,107,423
102,0,8,rect,b,NA,107,107,560
102,0,9,rect,g,NA,106,106,483
102,0,10,rect,r,NA,102,102,612
102,0,11,rect,y,NA,100,100,851
102,0,12,rect,g,NA,106,106,571
102,0,13,rect,b,NA,107,107,347
102,0,14,rect,r,NA,102,102,700
102,0,15,rect,y,NA,100,100,747
102,0,16,rect,r,NA,102,102,641
102,0,17,rect,g,NA,106,106,642
102,0,18,rect,b,NA,107,107,531
102,0,19,rect,y,NA,100,100,831
102,0,20,rect,g,NA,106,106,657
102,0,21,rect,r,NA,102,102,341
102,0,22,rect,b,NA,107,107,409
102,0,23,rect,y,NA,100,100,360
102,0,24,rect,y,NA,100,100,459
102,0,25,rect,g,NA,106,106,522
102,0,26,rect,r,NA,102,102,623
102,0,27,rect,b,NA,107,107,538
102,0,28,rect,b,NA,107,107,505
102,0,29,rect,g,NA,106,106,377
102,0,30,rect,r,NA,102,102,511
102,0,31,rect,y,NA,100,100,523
102,0,32,rect,y,NA,100,100,467
102,0,33,rect,b,NA,107,107,584
102,0,34,rect,g,NA,106,106,464
102,0,35,rect,r,NA,102,102,519
102,0,36,rect,g,NA,106,106,685
102,0,37,rect,r,NA,102,102,515
102,0,38,rect,b,NA,107,107,366
102,0,39,rect,y,NA,100,100,472
102,1,0,bw,NA,g,106,106,878
102,1,1,bw,NA,b,107,107,472
102,1,2,bw,NA,y,100,102,513
102,1,3,bw,NA,r,102,102,576
102,1,4,bw,NA,g,106,106,693
102,1,5,bw,NA,r,102,102,817
102,1,6,bw,NA,b,107,107,547
102,1,7,bw,NA,y,100,100,830
102,1,8,bw,NA,g,106,106,659
102,1,9,bw,NA,r,102,102,783
102,1,10,bw,NA,b,107,107,627
102,1,11,bw,NA,y,100,100,668
102,1,12,bw,NA,y,100,100,656
102,1,13,bw,NA,g,106,106,669
102,1,14,bw,NA,r,102,102,648
102,1,15,bw,NA,b,107,107,640
102,1,16,bw,NA,g,106,106,837
102,1,17,bw,NA,r,102,102,551
102,1,18,bw,NA,y,100,100,330
102,1,19,bw,NA,b,107,107,941
102,1,20,bw,NA,r,102,102,591
102,1,21,bw,NA,g,106,106,622
102,1,22,bw,NA,b,107,107,539
102,1,23,bw,NA,y,100,100,603
102,1,24,bw,NA,b,107,107,515
102,1,25,bw,NA,g,106,106,629
102,1,26,bw,NA,r,102,102,564
102,1,27,bw,NA,y,100,100,603
102,1,28,bw,NA,y,100,100,472
102,1,29,bw,NA,g,106,106,622
102,1,30,bw,NA,r,102,102,837
102,1,31,bw,NA,b,107,107,495
102,1,32,bw,NA,b,107,107,566
102,1,33,bw,NA,y,100,100,724
102,1,34,bw,NA,g,106,106,691
102,1,35,bw,NA,r,102,102,579
102,1,36,bw,NA,y,100,100,867
102,1,37,bw,NA,r,102,102,579
102,1,38,bw,NA,g,106,106,579
102,1,39,bw,NA,b,107,107,527
102,2,0,cong,y,y,100,100,619
102,2,1,neut,r,t,102,102,556
102,2,2,neut,b,m,107,107,520
102,2,3,incong,b,g,107,107,970
102,2,4,cong,r,r,102,102,687
102,2,5,cong,g,g,106,106,561
102,2,6,neut,y,m,100,None,None
102,2,7,neut,b,n,107,107,552
102,2,8,cong,b,b,107,107,493
102,2,9,neut,b,p,107,107,748
102,2,10,neut,y,n,100,100,897
102,2,11,neut,g,t,106,106,862
102,2,12,neut,r,n,102,102,613
102,2,13,incong,r,y,102,102,785
102,2,14,neut,y,t,100,100,926
102,2,15,neut,b,t,107,107,456
102,2,16,incong,y,b,100,100,725
102,2,17,neut,r,m,102,102,609
102,2,18,incong,g,r,106,106,656
102,2,19,incong,b,y,107,107,517
102,2,20,neut,g,m,106,106,1106
102,2,21,incong,g,b,106,106,639
102,2,22,neut,g,n,106,106,737
102,2,23,incong,r,g,102,102,608
102,2,24,incong,y,g,100,100,734
102,2,25,neut,g,p,106,106,843
102,2,26,neut,y,p,100,100,733
102,2,27,incong,g,y,106,106,583
102,2,28,incong,y,r,100,100,507
102,2,29,neut,r,p,102,102,693
102,2,30,incong,b,r,107,107,755
102,2,31,incong,r,b,102,102,841
102,2,32,neut,b,n,107,107,628
102,2,33,incong,y,g,100,100,648
102,2,34,incong,y,b,100,100,608
102,2,35,neut,y,p,100,100,678
102,2,36,incong,b,y,107,107,455
102,2,37,neut,y,t,100,100,632
102,2,38,cong,r,r,102,102,783
102,2,39,neut,b,p,107,107,633
102,2,40,neut,g,n,106,106,724
102,2,41,neut,y,n,100,100,828
102,2,42,incong,r,b,102,102,623
102,2,43,incong,b,g,107,107,505
102,2,44,incong,g,b,106,106,610
102,2,45,neut,r,t,102,102,561
102,2,46,incong,r,g,102,102,475
102,2,47,neut,b,t,107,107,469
102,2,48,neut,g,p,106,106,548
102,2,49,incong,r,y,102,102,560
102,2,50,neut,g,m,106,106,506
102,2,51,neut,g,t,106,106,374
102,2,52,neut,y,m,100,100,587
102,2,53,neut,r,p,102,102,685
102,2,54,incong,g,r,106,106,1035
102,2,55,incong,y,r,100,100,623
102,2,56,incong,b,r,107,107,627
102,2,57,cong,y,y,100,100,917
102,2,58,neut,r,m,102,102,732
102,2,59,neut,b,m,107,107,463
102,2,60,cong,g,g,106,106,460
102,2,61,cong,b,b,107,107,553
102,2,62,neut,r,n,102,102,631
102,2,63,incong,g,y,106,106,600
102,3,0,neut,b,m,107,107,536
102,3,1,incong,r,b,102,102,649
102,3,2,incong,g,r,106,106,600
102,3,3,incong,b,g,107,107,426
102,3,4,cong,r,r,102,102,515
102,3,5,cong,g,g,106,106,501
102,3,6,neut,y,n,100,100,588
102,3,7,neut,b,n,107,107,439
102,3,8,cong,b,b,107,107,543
102,3,9,neut,r,n,102,102,597
102,3,10,incong,r,g,102,102,497
102,3,11,incong,y,g,100,100,807
102,3,12,incong,b,y,107,107,515
102,3,13,neut,r,m,102,102,572
102,3,14,neut,y,m,100,100,638
102,3,15,neut,r,t,102,102,637
102,3,16,incong,g,y,106,106,593
102,3,17,neut,b,p,107,107,529
102,3,18,incong,y,r,100,100,576
102,3,19,neut,g,t,106,106,855
102,3,20,incong,b,r,107,107,416
102,3,21,neut,y,p,100,100,700
102,3,22,neut,g,p,106,106,552
102,3,23,incong,y,b,100,100,596
102,3,24,incong,r,y,102,102,561
102,3,25,neut,b,t,107,107,648
102,3,26,neut,g,n,106,106,741
102,3,27,neut,g,m,106,106,539
102,3,28,neut,y,t,100,100,699
102,3,29,incong,g,b,106,107,655
102,3,30,cong,y,y,100,100,692
102,3,31,neut,r,p,102,102,715
102,3,32,neut,y,t,100,100,701
102,3,33,cong,y,y,100,100,631
102,3,34,neut,b,t,107,107,577
102,3,35,incong,y,b,100,100,841
102,3,36,neut,g,t,106,106,748
102,3,37,incong,g,r,106,106,695
102,3,38,neut,y,n,100,100,721
102,3,39,incong,g,y,106,106,672
102,3,40,incong,g,b,106,106,1330
102,3,41,cong,r,r,102,102,637
102,3,42,incong,b,r,107,107,363
102,3,43,cong,b,b,107,107,486
102,3,44,neut,b,m,107,107,449
102,3,45,incong,y,g,100,100,726
102,3,46,neut,g,p,106,106,534
102,3,47,incong,r,y,102,102,511
102,3,48,neut,r,n,102,102,534
102,3,49,neut,r,t,102,102,414
102,3,50,incong,y,r,100,100,733
102,3,51,neut,b,p,107,107,488
102,3,52,incong,r,b,102,102,577
102,3,53,neut,r,m,102,102,595
102,3,54,neut,g,n,106,106,591
102,3,55,incong,r,g,102,102,578
102,3,56,neut,g,m,106,106,556
102,3,57,incong,b,g,107,107,421
102,3,58,incong,b,y,107,107,538
102,3,59,neut,y,m,100,100,593
102,3,60,neut,b,n,107,107,429
102,3,61,neut,r,p,102,102,707
102,3,62,cong,g,g,106,106,564
102,3,63,neut,y,p,100,100,527
